{"trials":[{"success":true,"timeout":false,"failed_images":[],"failed_audio":[],"failed_video":[],"trial_type":"preload","trial_index":0,"time_elapsed":4522,"internal_node_id":"0.0-0.0","condition":"count","subject_id":"SYN-CT-6345db67be19f93c93e67b77-zlr","study_id":"6458864f2d32583f7f54d7b5","session_id":"645ace6be86214abad11cdaf","user_lang":"en-US"},{"view_history":[{"page_index":0,"viewing_time":100237}],"rt":100238,"trial_type":"instructions","trial_index":1,"time_elapsed":104761,"internal_node_id":"0.0-1.0","condition":"count","subject_id":"SYN-CT-6345db67be19f93c93e67b77-zlr","study_id":"6458864f2d32583f7f54d7b5","session_id":"645ace6be86214abad11cdaf","user_lang":"en-US"},{"rt":4013,"stimulus":"img/blicket.png","response":0,"trial_type":"image-button-response-prompt-pos","trial_index":2,"time_elapsed":108781,"internal_node_id":"0.0-2.0-0.0","condition":"count","subject_id":"SYN-CT-6345db67be19f93c93e67b77-zlr","study_id":"6458864f2d32583f7f54d7b5","session_id":"645ace6be86214abad11cdaf","user_lang":"en-US"},{"rt":6002,"stimulus":["img/blicket_on.mp4"],"response":0,"trial_type":"video-button-response","trial_index":3,"time_elapsed":114822,"internal_node_id":"0.0-2.0-1.0","condition":"count","subject_id":"SYN-CT-6345db67be19f93c93e67b77-zlr","study_id":"6458864f2d32583f7f54d7b5","session_id":"645ace6be86214abad11cdaf","user_lang":"en-US"},{"rt":5724,"stimulus":"img/blicket_on.png","response":0,"trial_type":"image-button-response-prompt-pos","trial_index":4,"time_elapsed":120547,"internal_node_id":"0.0-2.0-2.0","condition":"count","subject_id":"SYN-CT-6345db67be19f93c93e67b77-zlr","study_id":"6458864f2d32583f7f54d7b5","session_id":"645ace6be86214abad11cdaf","user_lang":"en-US"},{"rt":7742,"stimulus":"img/fam_ind_1.png","response":0,"trial_type":"image-button-response-prompt-pos","trial_index":5,"time_elapsed":128291,"internal_node_id":"0.0-3.0-0.0","condition":"count","subject_id":"SYN-CT-6345db67be19f93c93e67b77-zlr","study_id":"6458864f2d32583f7f54d7b5","session_id":"645ace6be86214abad11cdaf","user_lang":"en-US"},{"rt":5293,"stimulus":["img/fam_ind_1.mp4"],"response":0,"trial_type":"video-button-response","trial_index":6,"time_elapsed":133585,"internal_node_id":"0.0-3.0-1.0","condition":"count","subject_id":"SYN-CT-6345db67be19f93c93e67b77-zlr","study_id":"6458864f2d32583f7f54d7b5","session_id":"645ace6be86214abad11cdaf","user_lang":"en-US"},{"rt":3386,"stimulus":"img/fam_ind_2.png","response":0,"trial_type":"image-button-response-prompt-pos","trial_index":7,"time_elapsed":136973,"internal_node_id":"0.0-3.0-0.1","condition":"count","subject_id":"SYN-CT-6345db67be19f93c93e67b77-zlr","study_id":"6458864f2d32583f7f54d7b5","session_id":"645ace6be86214abad11cdaf","user_lang":"en-US"},{"rt":13872,"stimulus":["img/fam_ind_2.mp4"],"response":0,"trial_type":"video-button-response","trial_index":8,"time_elapsed":150847,"internal_node_id":"0.0-3.0-1.1","condition":"count","subject_id":"SYN-CT-6345db67be19f93c93e67b77-zlr","study_id":"6458864f2d32583f7f54d7b5","session_id":"645ace6be86214abad11cdaf","user_lang":"en-US"},{"rt":5903,"stimulus":"img/fam_ind_off.png","response":0,"trial_type":"image-button-response-prompt-pos","trial_index":9,"time_elapsed":156751,"internal_node_id":"0.0-3.0-0.2","condition":"count","subject_id":"SYN-CT-6345db67be19f93c93e67b77-zlr","study_id":"6458864f2d32583f7f54d7b5","session_id":"645ace6be86214abad11cdaf","user_lang":"en-US"},{"rt":4974,"stimulus":["img/fam_ind_off.mp4"],"response":0,"trial_type":"video-button-response","trial_index":10,"time_elapsed":161727,"internal_node_id":"0.0-3.0-1.2","condition":"count","subject_id":"SYN-CT-6345db67be19f93c93e67b77-zlr","study_id":"6458864f2d32583f7f54d7b5","session_id":"645ace6be86214abad11cdaf","user_lang":"en-US"},{"rt":5844,"stimulus":"img/fam_con.png","response":0,"trial_type":"image-button-response-prompt-pos","trial_index":11,"time_elapsed":167573,"internal_node_id":"0.0-3.0-0.3","condition":"count","subject_id":"SYN-CT-6345db67be19f93c93e67b77-zlr","study_id":"6458864f2d32583f7f54d7b5","session_id":"645ace6be86214abad11cdaf","user_lang":"en-US"},{"rt":6041,"stimulus":["img/fam_con.mp4"],"response":0,"trial_type":"video-button-response","trial_index":12,"time_elapsed":173615,"internal_node_id":"0.0-3.0-1.3","condition":"count","subject_id":"SYN-CT-6345db67be19f93c93e67b77-zlr","study_id":"6458864f2d32583f7f54d7b5","session_id":"645ace6be86214abad11cdaf","user_lang":"en-US"},{"rt":1987,"stimulus":"img/fam_con_off.png","response":0,"trial_type":"image-button-response-prompt-pos","trial_index":13,"time_elapsed":175603,"internal_node_id":"0.0-3.0-0.4","condition":"count","subject_id":"SYN-CT-6345db67be19f93c93e67b77-zlr","study_id":"6458864f2d32583f7f54d7b5","session_id":"645ace6be86214abad11cdaf","user_lang":"en-US"},{"rt":6428,"stimulus":["img/fam_con_off.mp4"],"response":0,"trial_type":"video-button-response","trial_index":14,"time_elapsed":182033,"internal_node_id":"0.0-3.0-1.4","condition":"count","subject_id":"SYN-CT-6345db67be19f93c93e67b77-zlr","study_id":"6458864f2d32583f7f54d7b5","session_id":"645ace6be86214abad11cdaf","user_lang":"en-US"},{"rt":8869,"stimulus":"img/fam_a.png","response":0,"trial_type":"image-button-response-prompt-pos","trial_index":15,"time_elapsed":190903,"internal_node_id":"0.0-4.0-0.0","condition":"count","subject_id":"SYN-CT-6345db67be19f93c93e67b77-zlr","study_id":"6458864f2d32583f7f54d7b5","session_id":"645ace6be86214abad11cdaf","user_lang":"en-US"},{"rt":4573,"stimulus":"In this part of the study, you will answer some questions \n                     about how objects interact with the detector.<br>\n                     Please use the information in the images provided to answer \n                     the questions. You will have two opportunities to get each \n                     set of questions correct.","response":0,"trial_type":"html-button-response","trial_index":16,"time_elapsed":195477,"internal_node_id":"0.0-4.0-1.0","condition":"count","subject_id":"SYN-CT-6345db67be19f93c93e67b77-zlr","study_id":"6458864f2d32583f7f54d7b5","session_id":"645ace6be86214abad11cdaf","user_lang":"en-US"},{"rt":27283,"response":{"Fam_AL":"No","Fam_AM":"No","Fam_AR":"No","Fam_A_All":"Yes"},"question_order":[3,1,2,0],"trial_type":"survey-multi-choice","trial_index":17,"time_elapsed":222768,"internal_node_id":"0.0-5.0-0.0","condition":"count","subject_id":"SYN-CT-6345db67be19f93c93e67b77-zlr","study_id":"6458864f2d32583f7f54d7b5","session_id":"645ace6be86214abad11cdaf","user_lang":"en-US"},{"rt":11619,"response":{"Fam_AL":"No","Fam_AM":"Yes","Fam_AR":"Yes","Fam_A_All":"Yes"},"question_order":[3,2,0,1],"trial_type":"survey-multi-choice","trial_index":18,"time_elapsed":238337,"internal_node_id":"0.0-5.1-0.1","condition":"count","subject_id":"SYN-CT-6345db67be19f93c93e67b77-zlr","study_id":"6458864f2d32583f7f54d7b5","session_id":"645ace6be86214abad11cdaf","user_lang":"en-US"},{"rt":10626,"response":{"Fam_AL":"No","Fam_AM":"No","Fam_AR":"Yes","Fam_A_All":"Yes"},"question_order":[2,1,0,3],"trial_type":"survey-multi-choice","trial_index":19,"time_elapsed":250969,"internal_node_id":"0.0-5.2-0.2","condition":"count","subject_id":"SYN-CT-6345db67be19f93c93e67b77-zlr","study_id":"6458864f2d32583f7f54d7b5","session_id":"645ace6be86214abad11cdaf","user_lang":"en-US"},{"trial_type":"survey-multi-choice","trial_index":20,"time_elapsed":250970,"internal_node_id":"0.0-6.0-0.0","condition":"count","subject_id":"SYN-CT-6345db67be19f93c93e67b77-zlr","study_id":"6458864f2d32583f7f54d7b5","session_id":"645ace6be86214abad11cdaf","user_lang":"en-US"}]}