{"trials":[{"success":true,"timeout":false,"failed_images":[],"failed_audio":[],"failed_video":[],"trial_type":"preload","trial_index":0,"time_elapsed":1600,"internal_node_id":"0.0-0.0","condition":"mass","subject_id":"SYN-MS-6228f5900f303f54ca6ab186-udx","study_id":"6458864f2d32583f7f54d7b5","session_id":"645accbab1e64a13465b3d21","user_lang":"en-US"},{"view_history":[{"page_index":0,"viewing_time":7882}],"rt":7883,"trial_type":"instructions","trial_index":1,"time_elapsed":9483,"internal_node_id":"0.0-1.0","condition":"mass","subject_id":"SYN-MS-6228f5900f303f54ca6ab186-udx","study_id":"6458864f2d32583f7f54d7b5","session_id":"645accbab1e64a13465b3d21","user_lang":"en-US"},{"rt":6144,"stimulus":"img/blicket.png","response":0,"trial_type":"image-button-response-prompt-pos","trial_index":2,"time_elapsed":15629,"internal_node_id":"0.0-2.0-0.0","condition":"mass","subject_id":"SYN-MS-6228f5900f303f54ca6ab186-udx","study_id":"6458864f2d32583f7f54d7b5","session_id":"645accbab1e64a13465b3d21","user_lang":"en-US"},{"rt":23020,"stimulus":["img/blicket_on.mp4"],"response":0,"trial_type":"video-button-response","trial_index":3,"time_elapsed":38652,"internal_node_id":"0.0-2.0-1.0","condition":"mass","subject_id":"SYN-MS-6228f5900f303f54ca6ab186-udx","study_id":"6458864f2d32583f7f54d7b5","session_id":"645accbab1e64a13465b3d21","user_lang":"en-US"},{"rt":3988,"stimulus":"img/blicket_on.png","response":0,"trial_type":"image-button-response-prompt-pos","trial_index":4,"time_elapsed":42642,"internal_node_id":"0.0-2.0-2.0","condition":"mass","subject_id":"SYN-MS-6228f5900f303f54ca6ab186-udx","study_id":"6458864f2d32583f7f54d7b5","session_id":"645accbab1e64a13465b3d21","user_lang":"en-US"},{"rt":4452,"stimulus":"img/fam_ind_1.png","response":0,"trial_type":"image-button-response-prompt-pos","trial_index":5,"time_elapsed":47096,"internal_node_id":"0.0-3.0-0.0","condition":"mass","subject_id":"SYN-MS-6228f5900f303f54ca6ab186-udx","study_id":"6458864f2d32583f7f54d7b5","session_id":"645accbab1e64a13465b3d21","user_lang":"en-US"},{"rt":7950,"stimulus":["img/fam_ind_1.mp4"],"response":0,"trial_type":"video-button-response","trial_index":6,"time_elapsed":55048,"internal_node_id":"0.0-3.0-1.0","condition":"mass","subject_id":"SYN-MS-6228f5900f303f54ca6ab186-udx","study_id":"6458864f2d32583f7f54d7b5","session_id":"645accbab1e64a13465b3d21","user_lang":"en-US"},{"rt":3103,"stimulus":"img/fam_ind_2.png","response":0,"trial_type":"image-button-response-prompt-pos","trial_index":7,"time_elapsed":58155,"internal_node_id":"0.0-3.0-0.1","condition":"mass","subject_id":"SYN-MS-6228f5900f303f54ca6ab186-udx","study_id":"6458864f2d32583f7f54d7b5","session_id":"645accbab1e64a13465b3d21","user_lang":"en-US"},{"rt":5767,"stimulus":["img/fam_ind_2.mp4"],"response":0,"trial_type":"video-button-response","trial_index":8,"time_elapsed":63924,"internal_node_id":"0.0-3.0-1.1","condition":"mass","subject_id":"SYN-MS-6228f5900f303f54ca6ab186-udx","study_id":"6458864f2d32583f7f54d7b5","session_id":"645accbab1e64a13465b3d21","user_lang":"en-US"},{"rt":5181,"stimulus":"img/fam_ind_off.png","response":0,"trial_type":"image-button-response-prompt-pos","trial_index":9,"time_elapsed":69107,"internal_node_id":"0.0-3.0-0.2","condition":"mass","subject_id":"SYN-MS-6228f5900f303f54ca6ab186-udx","study_id":"6458864f2d32583f7f54d7b5","session_id":"645accbab1e64a13465b3d21","user_lang":"en-US"},{"rt":4869,"stimulus":["img/fam_ind_off.mp4"],"response":0,"trial_type":"video-button-response","trial_index":10,"time_elapsed":73978,"internal_node_id":"0.0-3.0-1.2","condition":"mass","subject_id":"SYN-MS-6228f5900f303f54ca6ab186-udx","study_id":"6458864f2d32583f7f54d7b5","session_id":"645accbab1e64a13465b3d21","user_lang":"en-US"},{"rt":3938,"stimulus":"img/fam_con.png","response":0,"trial_type":"image-button-response-prompt-pos","trial_index":11,"time_elapsed":77917,"internal_node_id":"0.0-3.0-0.3","condition":"mass","subject_id":"SYN-MS-6228f5900f303f54ca6ab186-udx","study_id":"6458864f2d32583f7f54d7b5","session_id":"645accbab1e64a13465b3d21","user_lang":"en-US"},{"rt":5009,"stimulus":["img/fam_con.mp4"],"response":0,"trial_type":"video-button-response","trial_index":12,"time_elapsed":82928,"internal_node_id":"0.0-3.0-1.3","condition":"mass","subject_id":"SYN-MS-6228f5900f303f54ca6ab186-udx","study_id":"6458864f2d32583f7f54d7b5","session_id":"645accbab1e64a13465b3d21","user_lang":"en-US"},{"rt":2671,"stimulus":"img/fam_con_off.png","response":0,"trial_type":"image-button-response-prompt-pos","trial_index":13,"time_elapsed":85601,"internal_node_id":"0.0-3.0-0.4","condition":"mass","subject_id":"SYN-MS-6228f5900f303f54ca6ab186-udx","study_id":"6458864f2d32583f7f54d7b5","session_id":"645accbab1e64a13465b3d21","user_lang":"en-US"},{"rt":4950,"stimulus":["img/fam_con_off.mp4"],"response":0,"trial_type":"video-button-response","trial_index":14,"time_elapsed":90553,"internal_node_id":"0.0-3.0-1.4","condition":"mass","subject_id":"SYN-MS-6228f5900f303f54ca6ab186-udx","study_id":"6458864f2d32583f7f54d7b5","session_id":"645accbab1e64a13465b3d21","user_lang":"en-US"},{"rt":8455,"stimulus":"img/fam_a.png","response":0,"trial_type":"image-button-response-prompt-pos","trial_index":15,"time_elapsed":99008,"internal_node_id":"0.0-4.0-0.0","condition":"mass","subject_id":"SYN-MS-6228f5900f303f54ca6ab186-udx","study_id":"6458864f2d32583f7f54d7b5","session_id":"645accbab1e64a13465b3d21","user_lang":"en-US"},{"rt":8546,"stimulus":"In this part of the study, you will answer some questions \n                     about how objects interact with the detector.<br>\n                     Please use the information in the images provided to answer \n                     the questions. You will have two opportunities to get each \n                     set of questions correct.","response":0,"trial_type":"html-button-response","trial_index":16,"time_elapsed":107555,"internal_node_id":"0.0-4.0-1.0","condition":"mass","subject_id":"SYN-MS-6228f5900f303f54ca6ab186-udx","study_id":"6458864f2d32583f7f54d7b5","session_id":"645accbab1e64a13465b3d21","user_lang":"en-US"},{"rt":15525,"response":{"Fam_AL":"No","Fam_AM":"Yes","Fam_AR":"Yes","Fam_A_All":"No"},"question_order":[0,1,2,3],"trial_type":"survey-multi-choice","trial_index":17,"time_elapsed":123083,"internal_node_id":"0.0-5.0-0.0","condition":"mass","subject_id":"SYN-MS-6228f5900f303f54ca6ab186-udx","study_id":"6458864f2d32583f7f54d7b5","session_id":"645accbab1e64a13465b3d21","user_lang":"en-US"},{"rt":13821,"response":{"Fam_BL":"Yes","Fam_BM":"No","Fam_BR":"No","Fam_B_All":"Yes"},"question_order":[3,1,2,0],"trial_type":"survey-multi-choice","trial_index":18,"time_elapsed":136910,"internal_node_id":"0.0-6.0-0.0","condition":"mass","subject_id":"SYN-MS-6228f5900f303f54ca6ab186-udx","study_id":"6458864f2d32583f7f54d7b5","session_id":"645accbab1e64a13465b3d21","user_lang":"en-US"},{"success":true,"trial_type":"fullscreen","trial_index":19,"time_elapsed":142687,"internal_node_id":"0.0-7.0","condition":"mass","subject_id":"SYN-MS-6228f5900f303f54ca6ab186-udx","study_id":"6458864f2d32583f7f54d7b5","session_id":"645accbab1e64a13465b3d21","user_lang":"en-US"},{"rt":2651,"stimulus":"Thank you! Please do not exit fullscreen mode until the end of the study.","response":0,"trial_type":"html-button-response","trial_index":20,"time_elapsed":145339,"internal_node_id":"0.0-8.0","condition":"mass","subject_id":"SYN-MS-6228f5900f303f54ca6ab186-udx","study_id":"6458864f2d32583f7f54d7b5","session_id":"645accbab1e64a13465b3d21","user_lang":"en-US"},{"rt":7202,"stimulus":"In this part of the study, you will see some words that might be unfamiliar.\n                 You will also see some groups of objects and how they interact with the detector.\n                 Use the information provided to guess which group of objects the word refers to.","response":0,"trial_type":"html-button-response","trial_index":21,"time_elapsed":152541,"internal_node_id":"0.0-9.0","condition":"mass","subject_id":"SYN-MS-6228f5900f303f54ca6ab186-udx","study_id":"6458864f2d32583f7f54d7b5","session_id":"645accbab1e64a13465b3d21","user_lang":"en-US"},{"rt":11962,"response":{"hchf":"img/stim_hchf_a.png"},"question_order":[0],"trial_type":"survey-multi-choice-image","trial_index":22,"time_elapsed":164505,"internal_node_id":"0.0-10.0","condition":"mass","subject_id":"SYN-MS-6228f5900f303f54ca6ab186-udx","study_id":"6458864f2d32583f7f54d7b5","session_id":"645accbab1e64a13465b3d21","user_lang":"en-US","phase":"test","category":"hchf","label":"sarel","prompt":"Some of these are <b>sarel</b>. Please select the ones that are <b>sarel</b>.","selected_group":"img/stim_hchf_a.png","selected_group_location":"right","selected_group_semantics":"con"},{"rt":10809,"response":{"mcmf":"img/stim_mcmf_b.png"},"question_order":[0],"trial_type":"survey-multi-choice-image","trial_index":23,"time_elapsed":175317,"internal_node_id":"0.0-11.0","condition":"mass","subject_id":"SYN-MS-6228f5900f303f54ca6ab186-udx","study_id":"6458864f2d32583f7f54d7b5","session_id":"645accbab1e64a13465b3d21","user_lang":"en-US","phase":"test","category":"mcmf","label":"zorp","prompt":"Some of these are <b>zorp</b>. Please select the ones that are <b>zorp</b>.","selected_group":"img/stim_mcmf_b.png","selected_group_location":"left","selected_group_semantics":"ind"},{"rt":11110,"response":{"lchf":"img/stim_lchf_a.png"},"question_order":[0],"trial_type":"survey-multi-choice-image","trial_index":24,"time_elapsed":186431,"internal_node_id":"0.0-12.0","condition":"mass","subject_id":"SYN-MS-6228f5900f303f54ca6ab186-udx","study_id":"6458864f2d32583f7f54d7b5","session_id":"645accbab1e64a13465b3d21","user_lang":"en-US","phase":"test","category":"lchf","label":"garn","prompt":"Some of these are <b>garn</b>. Please select the ones that are <b>garn</b>.","selected_group":"img/stim_lchf_a.png","selected_group_location":"right","selected_group_semantics":"con"},{"rt":10800,"response":{"hclf":"img/stim_hclf_a.png"},"question_order":[0],"trial_type":"survey-multi-choice-image","trial_index":25,"time_elapsed":197235,"internal_node_id":"0.0-13.0","condition":"mass","subject_id":"SYN-MS-6228f5900f303f54ca6ab186-udx","study_id":"6458864f2d32583f7f54d7b5","session_id":"645accbab1e64a13465b3d21","user_lang":"en-US","phase":"test","category":"hclf","label":"blicket","prompt":"Some of these are <b>blicket</b>. Please select the ones that are <b>blicket</b>.","selected_group":"img/stim_hclf_a.png","selected_group_location":"right","selected_group_semantics":"con"},{"rt":9438,"response":{"lclf":"img/stim_lclf_a.png"},"question_order":[0],"trial_type":"survey-multi-choice-image","trial_index":26,"time_elapsed":206677,"internal_node_id":"0.0-14.0","condition":"mass","subject_id":"SYN-MS-6228f5900f303f54ca6ab186-udx","study_id":"6458864f2d32583f7f54d7b5","session_id":"645accbab1e64a13465b3d21","user_lang":"en-US","phase":"test","category":"lclf","label":"toma","prompt":"Some of these are <b>toma</b>. Please select the ones that are <b>toma</b>.","selected_group":"img/stim_lclf_a.png","selected_group_location":"right","selected_group_semantics":"ind"},{"view_history":[{"page_index":0,"viewing_time":1889}],"rt":1890,"trial_type":"instructions","trial_index":27,"time_elapsed":208570,"internal_node_id":"0.0-15.0","condition":"mass","subject_id":"SYN-MS-6228f5900f303f54ca6ab186-udx","study_id":"6458864f2d32583f7f54d7b5","session_id":"645accbab1e64a13465b3d21","user_lang":"en-US"},{"rt":30470,"response":{"demog_meta":"followed the rules in the first part and the second i just guessed"},"demog_question":"demog_meta","trial_type":"survey-text","trial_index":28,"time_elapsed":239048,"internal_node_id":"0.0-16.0","condition":"mass","subject_id":"SYN-MS-6228f5900f303f54ca6ab186-udx","study_id":"6458864f2d32583f7f54d7b5","session_id":"645accbab1e64a13465b3d21","user_lang":"en-US"},{"rt":6795.70000000298,"response":{"demog_country_current":"United States of America (the)"},"question_order":[0],"demog_question":"demog_country_current","phase":"demog","trial_type":"survey-dropdown","trial_index":29,"time_elapsed":245847,"internal_node_id":"0.0-17.0","condition":"mass","subject_id":"SYN-MS-6228f5900f303f54ca6ab186-udx","study_id":"6458864f2d32583f7f54d7b5","session_id":"645accbab1e64a13465b3d21","user_lang":"en-US"},{"rt":4074,"response":{"demog_language_first":"Yes"},"question_order":[0],"demog_question":"demog_language_first","phase":"demog","trial_type":"survey-multi-choice","trial_index":30,"time_elapsed":249924,"internal_node_id":"0.0-18.0","condition":"mass","subject_id":"SYN-MS-6228f5900f303f54ca6ab186-udx","study_id":"6458864f2d32583f7f54d7b5","session_id":"645accbab1e64a13465b3d21","user_lang":"en-US"},{"rt":57745.89999999106,"response":{"demog_language_others":"French"},"question_order":[0],"phase":"demog","demog_question":"demog_language_others","trial_type":"survey-dropdown","trial_index":31,"time_elapsed":307673,"internal_node_id":"0.0-19.0-0.0","condition":"mass","subject_id":"SYN-MS-6228f5900f303f54ca6ab186-udx","study_id":"6458864f2d32583f7f54d7b5","session_id":"645accbab1e64a13465b3d21","user_lang":"en-US"},{"rt":15267.40000000596,"response":{"demog_language_others_fluency_sp":"5","demog_language_others_fluency_ud":"7"},"question_order":[0,1],"phase":"demog","demog_question":"demog_language_others_fluency","trial_type":"survey-dropdown","trial_index":32,"time_elapsed":322945,"internal_node_id":"0.0-19.0-1.0-0.0","condition":"mass","subject_id":"SYN-MS-6228f5900f303f54ca6ab186-udx","study_id":"6458864f2d32583f7f54d7b5","session_id":"645accbab1e64a13465b3d21","user_lang":"en-US"},{"rt":22441.90000000596,"response":{"demog_language_others":"German"},"question_order":[0],"phase":"demog","demog_question":"demog_language_others","trial_type":"survey-dropdown","trial_index":33,"time_elapsed":345389,"internal_node_id":"0.0-19.1-0.1","condition":"mass","subject_id":"SYN-MS-6228f5900f303f54ca6ab186-udx","study_id":"6458864f2d32583f7f54d7b5","session_id":"645accbab1e64a13465b3d21","user_lang":"en-US"},{"rt":9514.39999999106,"response":{"demog_language_others_fluency_sp":"1","demog_language_others_fluency_ud":"3"},"question_order":[0,1],"phase":"demog","demog_question":"demog_language_others_fluency","trial_type":"survey-dropdown","trial_index":34,"time_elapsed":354906,"internal_node_id":"0.0-19.1-1.1-0.1","condition":"mass","subject_id":"SYN-MS-6228f5900f303f54ca6ab186-udx","study_id":"6458864f2d32583f7f54d7b5","session_id":"645accbab1e64a13465b3d21","user_lang":"en-US"},{"rt":1664.9000000059605,"response":{"demog_language_others":""},"question_order":[0],"phase":"demog","demog_question":"demog_language_others","trial_type":"survey-dropdown","trial_index":35,"time_elapsed":356575,"internal_node_id":"0.0-19.2-0.2","condition":"mass","subject_id":"SYN-MS-6228f5900f303f54ca6ab186-udx","study_id":"6458864f2d32583f7f54d7b5","session_id":"645accbab1e64a13465b3d21","user_lang":"en-US"},{"rt":6293.0999999940395,"response":{"demog_age":"29","demog_gender":"Female"},"question_order":[0,1],"demog_question":"demog_age_gender","phase":"demog","trial_type":"survey-dropdown","trial_index":36,"time_elapsed":362871,"internal_node_id":"0.0-20.0","condition":"mass","subject_id":"SYN-MS-6228f5900f303f54ca6ab186-udx","study_id":"6458864f2d32583f7f54d7b5","session_id":"645accbab1e64a13465b3d21","user_lang":"en-US"},{"rt":3364,"response":{"demog_ethnic":["White"]},"question_order":[0],"demog_question":"demog_ethnic","phase":"demog","trial_type":"survey-multi-select","trial_index":37,"time_elapsed":366240,"internal_node_id":"0.0-21.0","condition":"mass","subject_id":"SYN-MS-6228f5900f303f54ca6ab186-udx","study_id":"6458864f2d32583f7f54d7b5","session_id":"645accbab1e64a13465b3d21","user_lang":"en-US"},{"rt":3815,"response":{"demog_objses":"Four-/Five-year college Bachelor's degree"},"question_order":[0],"demog_question":"demog_objses","phase":"demog","trial_type":"survey-multi-choice","trial_index":38,"time_elapsed":370059,"internal_node_id":"0.0-22.0","condition":"mass","subject_id":"SYN-MS-6228f5900f303f54ca6ab186-udx","study_id":"6458864f2d32583f7f54d7b5","session_id":"645accbab1e64a13465b3d21","user_lang":"en-US"},{"rt":6004,"response":{"demog_final_feedback":"non"},"demog_question":"demog_final_feedback","phase":"demog","trial_type":"survey-text","trial_index":39,"time_elapsed":376068,"internal_node_id":"0.0-23.0","condition":"mass","subject_id":"SYN-MS-6228f5900f303f54ca6ab186-udx","study_id":"6458864f2d32583f7f54d7b5","session_id":"645accbab1e64a13465b3d21","user_lang":"en-US"}]}