{"trials":[{"success":true,"timeout":false,"failed_images":[],"failed_audio":[],"failed_video":[],"trial_type":"preload","trial_index":0,"time_elapsed":12606,"internal_node_id":"0.0-0.0","condition":"count","subject_id":"SYN-CT-610b944a8639f10993d9fb2f-qdm","study_id":"6458864f2d32583f7f54d7b5","session_id":"645acfefd8586ea434ef0388","user_lang":"en-US"},{"view_history":[{"page_index":0,"viewing_time":37758}],"rt":37758,"trial_type":"instructions","trial_index":1,"time_elapsed":50365,"internal_node_id":"0.0-1.0","condition":"count","subject_id":"SYN-CT-610b944a8639f10993d9fb2f-qdm","study_id":"6458864f2d32583f7f54d7b5","session_id":"645acfefd8586ea434ef0388","user_lang":"en-US"},{"rt":6568,"stimulus":"img/blicket.png","response":0,"trial_type":"image-button-response-prompt-pos","trial_index":2,"time_elapsed":56951,"internal_node_id":"0.0-2.0-0.0","condition":"count","subject_id":"SYN-CT-610b944a8639f10993d9fb2f-qdm","study_id":"6458864f2d32583f7f54d7b5","session_id":"645acfefd8586ea434ef0388","user_lang":"en-US"},{"rt":7194,"stimulus":["img/blicket_on.mp4"],"response":0,"trial_type":"video-button-response","trial_index":3,"time_elapsed":64163,"internal_node_id":"0.0-2.0-1.0","condition":"count","subject_id":"SYN-CT-610b944a8639f10993d9fb2f-qdm","study_id":"6458864f2d32583f7f54d7b5","session_id":"645acfefd8586ea434ef0388","user_lang":"en-US"},{"rt":17208,"stimulus":"img/blicket_on.png","response":0,"trial_type":"image-button-response-prompt-pos","trial_index":4,"time_elapsed":81374,"internal_node_id":"0.0-2.0-2.0","condition":"count","subject_id":"SYN-CT-610b944a8639f10993d9fb2f-qdm","study_id":"6458864f2d32583f7f54d7b5","session_id":"645acfefd8586ea434ef0388","user_lang":"en-US"},{"rt":4855,"stimulus":"img/fam_ind_1.png","response":0,"trial_type":"image-button-response-prompt-pos","trial_index":5,"time_elapsed":86234,"internal_node_id":"0.0-3.0-0.0","condition":"count","subject_id":"SYN-CT-610b944a8639f10993d9fb2f-qdm","study_id":"6458864f2d32583f7f54d7b5","session_id":"645acfefd8586ea434ef0388","user_lang":"en-US"},{"rt":6333,"stimulus":["img/fam_ind_1.mp4"],"response":0,"trial_type":"video-button-response","trial_index":6,"time_elapsed":92570,"internal_node_id":"0.0-3.0-1.0","condition":"count","subject_id":"SYN-CT-610b944a8639f10993d9fb2f-qdm","study_id":"6458864f2d32583f7f54d7b5","session_id":"645acfefd8586ea434ef0388","user_lang":"en-US"},{"rt":5625,"stimulus":"img/fam_ind_2.png","response":0,"trial_type":"image-button-response-prompt-pos","trial_index":7,"time_elapsed":98201,"internal_node_id":"0.0-3.0-0.1","condition":"count","subject_id":"SYN-CT-610b944a8639f10993d9fb2f-qdm","study_id":"6458864f2d32583f7f54d7b5","session_id":"645acfefd8586ea434ef0388","user_lang":"en-US"},{"rt":8513,"stimulus":["img/fam_ind_2.mp4"],"response":0,"trial_type":"video-button-response","trial_index":8,"time_elapsed":106721,"internal_node_id":"0.0-3.0-1.1","condition":"count","subject_id":"SYN-CT-610b944a8639f10993d9fb2f-qdm","study_id":"6458864f2d32583f7f54d7b5","session_id":"645acfefd8586ea434ef0388","user_lang":"en-US"},{"rt":16321,"stimulus":"img/fam_ind_off.png","response":0,"trial_type":"image-button-response-prompt-pos","trial_index":9,"time_elapsed":123048,"internal_node_id":"0.0-3.0-0.2","condition":"count","subject_id":"SYN-CT-610b944a8639f10993d9fb2f-qdm","study_id":"6458864f2d32583f7f54d7b5","session_id":"645acfefd8586ea434ef0388","user_lang":"en-US"},{"rt":6283,"stimulus":["img/fam_ind_off.mp4"],"response":0,"trial_type":"video-button-response","trial_index":10,"time_elapsed":129333,"internal_node_id":"0.0-3.0-1.2","condition":"count","subject_id":"SYN-CT-610b944a8639f10993d9fb2f-qdm","study_id":"6458864f2d32583f7f54d7b5","session_id":"645acfefd8586ea434ef0388","user_lang":"en-US"},{"rt":6276,"stimulus":"img/fam_con.png","response":0,"trial_type":"image-button-response-prompt-pos","trial_index":11,"time_elapsed":135613,"internal_node_id":"0.0-3.0-0.3","condition":"count","subject_id":"SYN-CT-610b944a8639f10993d9fb2f-qdm","study_id":"6458864f2d32583f7f54d7b5","session_id":"645acfefd8586ea434ef0388","user_lang":"en-US"},{"rt":5038,"stimulus":["img/fam_con.mp4"],"response":0,"trial_type":"video-button-response","trial_index":12,"time_elapsed":140658,"internal_node_id":"0.0-3.0-1.3","condition":"count","subject_id":"SYN-CT-610b944a8639f10993d9fb2f-qdm","study_id":"6458864f2d32583f7f54d7b5","session_id":"645acfefd8586ea434ef0388","user_lang":"en-US"},{"rt":4454,"stimulus":"img/fam_con_off.png","response":0,"trial_type":"image-button-response-prompt-pos","trial_index":13,"time_elapsed":145121,"internal_node_id":"0.0-3.0-0.4","condition":"count","subject_id":"SYN-CT-610b944a8639f10993d9fb2f-qdm","study_id":"6458864f2d32583f7f54d7b5","session_id":"645acfefd8586ea434ef0388","user_lang":"en-US"},{"rt":4663,"stimulus":["img/fam_con_off.mp4"],"response":0,"trial_type":"video-button-response","trial_index":14,"time_elapsed":149788,"internal_node_id":"0.0-3.0-1.4","condition":"count","subject_id":"SYN-CT-610b944a8639f10993d9fb2f-qdm","study_id":"6458864f2d32583f7f54d7b5","session_id":"645acfefd8586ea434ef0388","user_lang":"en-US"},{"rt":11908,"stimulus":"img/fam_a.png","response":0,"trial_type":"image-button-response-prompt-pos","trial_index":15,"time_elapsed":161699,"internal_node_id":"0.0-4.0-0.0","condition":"count","subject_id":"SYN-CT-610b944a8639f10993d9fb2f-qdm","study_id":"6458864f2d32583f7f54d7b5","session_id":"645acfefd8586ea434ef0388","user_lang":"en-US"},{"rt":10853,"stimulus":"In this part of the study, you will answer some questions \n                     about how objects interact with the detector.<br>\n                     Please use the information in the images provided to answer \n                     the questions. You will have two opportunities to get each \n                     set of questions correct.","response":0,"trial_type":"html-button-response","trial_index":16,"time_elapsed":172554,"internal_node_id":"0.0-4.0-1.0","condition":"count","subject_id":"SYN-CT-610b944a8639f10993d9fb2f-qdm","study_id":"6458864f2d32583f7f54d7b5","session_id":"645acfefd8586ea434ef0388","user_lang":"en-US"},{"rt":23573,"response":{"Fam_AL":"No","Fam_AM":"Yes","Fam_AR":"Yes","Fam_A_All":"No"},"question_order":[1,3,2,0],"trial_type":"survey-multi-choice","trial_index":17,"time_elapsed":196133,"internal_node_id":"0.0-5.0-0.0","condition":"count","subject_id":"SYN-CT-610b944a8639f10993d9fb2f-qdm","study_id":"6458864f2d32583f7f54d7b5","session_id":"645acfefd8586ea434ef0388","user_lang":"en-US"},{"rt":12115,"response":{"Fam_BL":"Yes","Fam_BM":"No","Fam_BR":"No","Fam_B_All":"Yes"},"question_order":[3,1,2,0],"trial_type":"survey-multi-choice","trial_index":18,"time_elapsed":208256,"internal_node_id":"0.0-6.0-0.0","condition":"count","subject_id":"SYN-CT-610b944a8639f10993d9fb2f-qdm","study_id":"6458864f2d32583f7f54d7b5","session_id":"645acfefd8586ea434ef0388","user_lang":"en-US"},{"success":true,"trial_type":"fullscreen","trial_index":19,"time_elapsed":213250,"internal_node_id":"0.0-7.0","condition":"count","subject_id":"SYN-CT-610b944a8639f10993d9fb2f-qdm","study_id":"6458864f2d32583f7f54d7b5","session_id":"645acfefd8586ea434ef0388","user_lang":"en-US"},{"rt":3691,"stimulus":"Thank you! Please do not exit fullscreen mode until the end of the study.","response":0,"trial_type":"html-button-response","trial_index":20,"time_elapsed":216944,"internal_node_id":"0.0-8.0","condition":"count","subject_id":"SYN-CT-610b944a8639f10993d9fb2f-qdm","study_id":"6458864f2d32583f7f54d7b5","session_id":"645acfefd8586ea434ef0388","user_lang":"en-US"},{"rt":16658,"stimulus":"In this part of the study, you will see some words that might be unfamiliar.\n                 You will also see some groups of objects and how they interact with the detector.\n                 Use the information provided to guess which group of objects the word refers to.","response":0,"trial_type":"html-button-response","trial_index":21,"time_elapsed":233604,"internal_node_id":"0.0-9.0","condition":"count","subject_id":"SYN-CT-610b944a8639f10993d9fb2f-qdm","study_id":"6458864f2d32583f7f54d7b5","session_id":"645acfefd8586ea434ef0388","user_lang":"en-US"},{"rt":64645,"response":{"lchf":"img/stim_lchf_a.png"},"question_order":[0],"trial_type":"survey-multi-choice-image","trial_index":22,"time_elapsed":298252,"internal_node_id":"0.0-10.0","condition":"count","subject_id":"SYN-CT-610b944a8639f10993d9fb2f-qdm","study_id":"6458864f2d32583f7f54d7b5","session_id":"645acfefd8586ea434ef0388","user_lang":"en-US","phase":"test","category":"lchf","label":"zorp","prompt":"Some of these are <b>zorps</b>. Please select the ones that are <b>zorps</b>.","selected_group":"img/stim_lchf_a.png","selected_group_location":"left","selected_group_semantics":"con"},{"rt":15183,"response":{"mcmf":"img/stim_mcmf_b.png"},"question_order":[0],"trial_type":"survey-multi-choice-image","trial_index":23,"time_elapsed":313443,"internal_node_id":"0.0-11.0","condition":"count","subject_id":"SYN-CT-610b944a8639f10993d9fb2f-qdm","study_id":"6458864f2d32583f7f54d7b5","session_id":"645acfefd8586ea434ef0388","user_lang":"en-US","phase":"test","category":"mcmf","label":"toma","prompt":"Some of these are <b>tomas</b>. Please select the ones that are <b>tomas</b>.","selected_group":"img/stim_mcmf_b.png","selected_group_location":"right","selected_group_semantics":"con"},{"rt":15800,"response":{"hchf":"img/stim_hchf_b.png"},"question_order":[0],"trial_type":"survey-multi-choice-image","trial_index":24,"time_elapsed":329250,"internal_node_id":"0.0-12.0","condition":"count","subject_id":"SYN-CT-610b944a8639f10993d9fb2f-qdm","study_id":"6458864f2d32583f7f54d7b5","session_id":"645acfefd8586ea434ef0388","user_lang":"en-US","phase":"test","category":"hchf","label":"sarel","prompt":"Some of these are <b>sarels</b>. Please select the ones that are <b>sarels</b>.","selected_group":"img/stim_hchf_b.png","selected_group_location":"left","selected_group_semantics":"con"},{"rt":15923,"response":{"lclf":"img/stim_lclf_b.png"},"question_order":[0],"trial_type":"survey-multi-choice-image","trial_index":25,"time_elapsed":345178,"internal_node_id":"0.0-13.0","condition":"count","subject_id":"SYN-CT-610b944a8639f10993d9fb2f-qdm","study_id":"6458864f2d32583f7f54d7b5","session_id":"645acfefd8586ea434ef0388","user_lang":"en-US","phase":"test","category":"lclf","label":"blicket","prompt":"Some of these are <b>blickets</b>. Please select the ones that are <b>blickets</b>.","selected_group":"img/stim_lclf_b.png","selected_group_location":"right","selected_group_semantics":"con"},{"rt":23327,"response":{"hclf":"img/stim_hclf_a.png"},"question_order":[0],"trial_type":"survey-multi-choice-image","trial_index":26,"time_elapsed":368508,"internal_node_id":"0.0-14.0","condition":"count","subject_id":"SYN-CT-610b944a8639f10993d9fb2f-qdm","study_id":"6458864f2d32583f7f54d7b5","session_id":"645acfefd8586ea434ef0388","user_lang":"en-US","phase":"test","category":"hclf","label":"garn","prompt":"Some of these are <b>garns</b>. Please select the ones that are <b>garns</b>.","selected_group":"img/stim_hclf_a.png","selected_group_location":"left","selected_group_semantics":"con"},{"view_history":[{"page_index":0,"viewing_time":2376}],"rt":2376,"trial_type":"instructions","trial_index":27,"time_elapsed":370890,"internal_node_id":"0.0-15.0","condition":"count","subject_id":"SYN-CT-610b944a8639f10993d9fb2f-qdm","study_id":"6458864f2d32583f7f54d7b5","session_id":"645acfefd8586ea434ef0388","user_lang":"en-US"},{"rt":83601,"response":{"demog_meta":"process of elimination and intuitive guessing"},"demog_question":"demog_meta","trial_type":"survey-text","trial_index":28,"time_elapsed":454507,"internal_node_id":"0.0-16.0","condition":"count","subject_id":"SYN-CT-610b944a8639f10993d9fb2f-qdm","study_id":"6458864f2d32583f7f54d7b5","session_id":"645acfefd8586ea434ef0388","user_lang":"en-US"},{"rt":9682.20000076294,"response":{"demog_country_current":"United States of America (the)"},"question_order":[0],"demog_question":"demog_country_current","phase":"demog","trial_type":"survey-dropdown","trial_index":29,"time_elapsed":464194,"internal_node_id":"0.0-17.0","condition":"count","subject_id":"SYN-CT-610b944a8639f10993d9fb2f-qdm","study_id":"6458864f2d32583f7f54d7b5","session_id":"645acfefd8586ea434ef0388","user_lang":"en-US"},{"rt":2092,"response":{"demog_language_first":"Yes"},"question_order":[0],"demog_question":"demog_language_first","phase":"demog","trial_type":"survey-multi-choice","trial_index":30,"time_elapsed":466292,"internal_node_id":"0.0-18.0","condition":"count","subject_id":"SYN-CT-610b944a8639f10993d9fb2f-qdm","study_id":"6458864f2d32583f7f54d7b5","session_id":"645acfefd8586ea434ef0388","user_lang":"en-US"},{"rt":9112,"response":{"demog_language_others":""},"question_order":[0],"phase":"demog","demog_question":"demog_language_others","trial_type":"survey-dropdown","trial_index":31,"time_elapsed":475412,"internal_node_id":"0.0-19.0-0.0","condition":"count","subject_id":"SYN-CT-610b944a8639f10993d9fb2f-qdm","study_id":"6458864f2d32583f7f54d7b5","session_id":"645acfefd8586ea434ef0388","user_lang":"en-US"},{"rt":6197.800000190735,"response":{"demog_age":"25","demog_gender":"Female"},"question_order":[0,1],"demog_question":"demog_age_gender","phase":"demog","trial_type":"survey-dropdown","trial_index":32,"time_elapsed":481618,"internal_node_id":"0.0-20.0","condition":"count","subject_id":"SYN-CT-610b944a8639f10993d9fb2f-qdm","study_id":"6458864f2d32583f7f54d7b5","session_id":"645acfefd8586ea434ef0388","user_lang":"en-US"},{"rt":3208,"response":{"demog_ethnic":["White"]},"question_order":[0],"demog_question":"demog_ethnic","phase":"demog","trial_type":"survey-multi-select","trial_index":33,"time_elapsed":484836,"internal_node_id":"0.0-21.0","condition":"count","subject_id":"SYN-CT-610b944a8639f10993d9fb2f-qdm","study_id":"6458864f2d32583f7f54d7b5","session_id":"645acfefd8586ea434ef0388","user_lang":"en-US"},{"rt":6692,"response":{"demog_objses":"High school graduate/GED"},"question_order":[0],"demog_question":"demog_objses","phase":"demog","trial_type":"survey-multi-choice","trial_index":34,"time_elapsed":491529,"internal_node_id":"0.0-22.0","condition":"count","subject_id":"SYN-CT-610b944a8639f10993d9fb2f-qdm","study_id":"6458864f2d32583f7f54d7b5","session_id":"645acfefd8586ea434ef0388","user_lang":"en-US"},{"rt":3034,"response":{"demog_final_feedback":""},"demog_question":"demog_final_feedback","phase":"demog","trial_type":"survey-text","trial_index":35,"time_elapsed":494569,"internal_node_id":"0.0-23.0","condition":"count","subject_id":"SYN-CT-610b944a8639f10993d9fb2f-qdm","study_id":"6458864f2d32583f7f54d7b5","session_id":"645acfefd8586ea434ef0388","user_lang":"en-US"}]}