{"trials":[{"success":true,"timeout":false,"failed_images":[],"failed_audio":[],"failed_video":[],"trial_type":"preload","trial_index":0,"time_elapsed":7943,"internal_node_id":"0.0-0.0","condition":"mass","subject_id":"SYN-MS-610214d0b27e356a6152e232-7uk","study_id":"6458864f2d32583f7f54d7b5","session_id":"645aca2f04b3a9857e15f373","user_lang":"en-US"},{"view_history":[{"page_index":0,"viewing_time":13331}],"rt":13334,"trial_type":"instructions","trial_index":1,"time_elapsed":21281,"internal_node_id":"0.0-1.0","condition":"mass","subject_id":"SYN-MS-610214d0b27e356a6152e232-7uk","study_id":"6458864f2d32583f7f54d7b5","session_id":"645aca2f04b3a9857e15f373","user_lang":"en-US"},{"rt":5085,"stimulus":"img/blicket.png","response":0,"trial_type":"image-button-response-prompt-pos","trial_index":2,"time_elapsed":26377,"internal_node_id":"0.0-2.0-0.0","condition":"mass","subject_id":"SYN-MS-610214d0b27e356a6152e232-7uk","study_id":"6458864f2d32583f7f54d7b5","session_id":"645aca2f04b3a9857e15f373","user_lang":"en-US"},{"rt":5128,"stimulus":["img/blicket_on.mp4"],"response":0,"trial_type":"video-button-response","trial_index":3,"time_elapsed":31515,"internal_node_id":"0.0-2.0-1.0","condition":"mass","subject_id":"SYN-MS-610214d0b27e356a6152e232-7uk","study_id":"6458864f2d32583f7f54d7b5","session_id":"645aca2f04b3a9857e15f373","user_lang":"en-US"},{"rt":4070,"stimulus":"img/blicket_on.png","response":0,"trial_type":"image-button-response-prompt-pos","trial_index":4,"time_elapsed":35590,"internal_node_id":"0.0-2.0-2.0","condition":"mass","subject_id":"SYN-MS-610214d0b27e356a6152e232-7uk","study_id":"6458864f2d32583f7f54d7b5","session_id":"645aca2f04b3a9857e15f373","user_lang":"en-US"},{"rt":4542,"stimulus":"img/fam_ind_1.png","response":0,"trial_type":"image-button-response-prompt-pos","trial_index":5,"time_elapsed":40137,"internal_node_id":"0.0-3.0-0.0","condition":"mass","subject_id":"SYN-MS-610214d0b27e356a6152e232-7uk","study_id":"6458864f2d32583f7f54d7b5","session_id":"645aca2f04b3a9857e15f373","user_lang":"en-US"},{"rt":6853,"stimulus":["img/fam_ind_1.mp4"],"response":0,"trial_type":"video-button-response","trial_index":6,"time_elapsed":46994,"internal_node_id":"0.0-3.0-1.0","condition":"mass","subject_id":"SYN-MS-610214d0b27e356a6152e232-7uk","study_id":"6458864f2d32583f7f54d7b5","session_id":"645aca2f04b3a9857e15f373","user_lang":"en-US"},{"rt":5673,"stimulus":"img/fam_ind_2.png","response":0,"trial_type":"image-button-response-prompt-pos","trial_index":7,"time_elapsed":52674,"internal_node_id":"0.0-3.0-0.1","condition":"mass","subject_id":"SYN-MS-610214d0b27e356a6152e232-7uk","study_id":"6458864f2d32583f7f54d7b5","session_id":"645aca2f04b3a9857e15f373","user_lang":"en-US"},{"rt":6511,"stimulus":["img/fam_ind_2.mp4"],"response":0,"trial_type":"video-button-response","trial_index":8,"time_elapsed":59192,"internal_node_id":"0.0-3.0-1.1","condition":"mass","subject_id":"SYN-MS-610214d0b27e356a6152e232-7uk","study_id":"6458864f2d32583f7f54d7b5","session_id":"645aca2f04b3a9857e15f373","user_lang":"en-US"},{"rt":1766,"stimulus":"img/fam_ind_off.png","response":0,"trial_type":"image-button-response-prompt-pos","trial_index":9,"time_elapsed":60964,"internal_node_id":"0.0-3.0-0.2","condition":"mass","subject_id":"SYN-MS-610214d0b27e356a6152e232-7uk","study_id":"6458864f2d32583f7f54d7b5","session_id":"645aca2f04b3a9857e15f373","user_lang":"en-US"},{"rt":5607,"stimulus":["img/fam_ind_off.mp4"],"response":0,"trial_type":"video-button-response","trial_index":10,"time_elapsed":66576,"internal_node_id":"0.0-3.0-1.2","condition":"mass","subject_id":"SYN-MS-610214d0b27e356a6152e232-7uk","study_id":"6458864f2d32583f7f54d7b5","session_id":"645aca2f04b3a9857e15f373","user_lang":"en-US"},{"rt":2727,"stimulus":"img/fam_con.png","response":0,"trial_type":"image-button-response-prompt-pos","trial_index":11,"time_elapsed":69310,"internal_node_id":"0.0-3.0-0.3","condition":"mass","subject_id":"SYN-MS-610214d0b27e356a6152e232-7uk","study_id":"6458864f2d32583f7f54d7b5","session_id":"645aca2f04b3a9857e15f373","user_lang":"en-US"},{"rt":4344,"stimulus":["img/fam_con.mp4"],"response":0,"trial_type":"video-button-response","trial_index":12,"time_elapsed":73662,"internal_node_id":"0.0-3.0-1.3","condition":"mass","subject_id":"SYN-MS-610214d0b27e356a6152e232-7uk","study_id":"6458864f2d32583f7f54d7b5","session_id":"645aca2f04b3a9857e15f373","user_lang":"en-US"},{"rt":2766,"stimulus":"img/fam_con_off.png","response":0,"trial_type":"image-button-response-prompt-pos","trial_index":13,"time_elapsed":76434,"internal_node_id":"0.0-3.0-0.4","condition":"mass","subject_id":"SYN-MS-610214d0b27e356a6152e232-7uk","study_id":"6458864f2d32583f7f54d7b5","session_id":"645aca2f04b3a9857e15f373","user_lang":"en-US"},{"rt":4662,"stimulus":["img/fam_con_off.mp4"],"response":0,"trial_type":"video-button-response","trial_index":14,"time_elapsed":81103,"internal_node_id":"0.0-3.0-1.4","condition":"mass","subject_id":"SYN-MS-610214d0b27e356a6152e232-7uk","study_id":"6458864f2d32583f7f54d7b5","session_id":"645aca2f04b3a9857e15f373","user_lang":"en-US"},{"rt":6471,"stimulus":"img/fam_a.png","response":0,"trial_type":"image-button-response-prompt-pos","trial_index":15,"time_elapsed":87580,"internal_node_id":"0.0-4.0-0.0","condition":"mass","subject_id":"SYN-MS-610214d0b27e356a6152e232-7uk","study_id":"6458864f2d32583f7f54d7b5","session_id":"645aca2f04b3a9857e15f373","user_lang":"en-US"},{"rt":4177,"stimulus":"In this part of the study, you will answer some questions \n                     about how objects interact with the detector.<br>\n                     Please use the information in the images provided to answer \n                     the questions. You will have two opportunities to get each \n                     set of questions correct.","response":0,"trial_type":"html-button-response","trial_index":16,"time_elapsed":91761,"internal_node_id":"0.0-4.0-1.0","condition":"mass","subject_id":"SYN-MS-610214d0b27e356a6152e232-7uk","study_id":"6458864f2d32583f7f54d7b5","session_id":"645aca2f04b3a9857e15f373","user_lang":"en-US"},{"rt":11284,"response":{"Fam_AL":"No","Fam_AM":"Yes","Fam_AR":"Yes","Fam_A_All":"No"},"question_order":[0,3,1,2],"trial_type":"survey-multi-choice","trial_index":17,"time_elapsed":103055,"internal_node_id":"0.0-5.0-0.0","condition":"mass","subject_id":"SYN-MS-610214d0b27e356a6152e232-7uk","study_id":"6458864f2d32583f7f54d7b5","session_id":"645aca2f04b3a9857e15f373","user_lang":"en-US"},{"rt":10812,"response":{"Fam_BL":"Yes","Fam_BM":"No","Fam_BR":"No","Fam_B_All":"Yes"},"question_order":[0,1,3,2],"trial_type":"survey-multi-choice","trial_index":18,"time_elapsed":113884,"internal_node_id":"0.0-6.0-0.0","condition":"mass","subject_id":"SYN-MS-610214d0b27e356a6152e232-7uk","study_id":"6458864f2d32583f7f54d7b5","session_id":"645aca2f04b3a9857e15f373","user_lang":"en-US"},{"success":true,"trial_type":"fullscreen","trial_index":19,"time_elapsed":131850,"internal_node_id":"0.0-7.0","condition":"mass","subject_id":"SYN-MS-610214d0b27e356a6152e232-7uk","study_id":"6458864f2d32583f7f54d7b5","session_id":"645aca2f04b3a9857e15f373","user_lang":"en-US"},{"rt":1987,"stimulus":"Thank you! Please do not exit fullscreen mode until the end of the study.","response":0,"trial_type":"html-button-response","trial_index":20,"time_elapsed":133841,"internal_node_id":"0.0-8.0","condition":"mass","subject_id":"SYN-MS-610214d0b27e356a6152e232-7uk","study_id":"6458864f2d32583f7f54d7b5","session_id":"645aca2f04b3a9857e15f373","user_lang":"en-US"},{"rt":5117,"stimulus":"In this part of the study, you will see some words that might be unfamiliar.\n                 You will also see some groups of objects and how they interact with the detector.\n                 Use the information provided to guess which group of objects the word refers to.","response":0,"trial_type":"html-button-response","trial_index":21,"time_elapsed":138961,"internal_node_id":"0.0-9.0","condition":"mass","subject_id":"SYN-MS-610214d0b27e356a6152e232-7uk","study_id":"6458864f2d32583f7f54d7b5","session_id":"645aca2f04b3a9857e15f373","user_lang":"en-US"},{"rt":14295,"response":{"hchf":"img/stim_hchf_a.png"},"question_order":[0],"trial_type":"survey-multi-choice-image","trial_index":22,"time_elapsed":153262,"internal_node_id":"0.0-10.0","condition":"mass","subject_id":"SYN-MS-610214d0b27e356a6152e232-7uk","study_id":"6458864f2d32583f7f54d7b5","session_id":"645aca2f04b3a9857e15f373","user_lang":"en-US","phase":"test","category":"hchf","label":"garn","prompt":"Some of these are <b>garn</b>. Please select the ones that are <b>garn</b>.","selected_group":"img/stim_hchf_a.png","selected_group_location":"left","selected_group_semantics":"ind"},{"rt":8216,"response":{"lclf":"img/stim_lclf_b.png"},"question_order":[0],"trial_type":"survey-multi-choice-image","trial_index":23,"time_elapsed":161493,"internal_node_id":"0.0-11.0","condition":"mass","subject_id":"SYN-MS-610214d0b27e356a6152e232-7uk","study_id":"6458864f2d32583f7f54d7b5","session_id":"645aca2f04b3a9857e15f373","user_lang":"en-US","phase":"test","category":"lclf","label":"sarel","prompt":"Some of these are <b>sarel</b>. Please select the ones that are <b>sarel</b>.","selected_group":"img/stim_lclf_b.png","selected_group_location":"right","selected_group_semantics":"con"},{"rt":5584,"response":{"hclf":"img/stim_hclf_b.png"},"question_order":[0],"trial_type":"survey-multi-choice-image","trial_index":24,"time_elapsed":167089,"internal_node_id":"0.0-12.0","condition":"mass","subject_id":"SYN-MS-610214d0b27e356a6152e232-7uk","study_id":"6458864f2d32583f7f54d7b5","session_id":"645aca2f04b3a9857e15f373","user_lang":"en-US","phase":"test","category":"hclf","label":"blicket","prompt":"Some of these are <b>blicket</b>. Please select the ones that are <b>blicket</b>.","selected_group":"img/stim_hclf_b.png","selected_group_location":"right","selected_group_semantics":"con"},{"rt":9391,"response":{"mcmf":"img/stim_mcmf_b.png"},"question_order":[0],"trial_type":"survey-multi-choice-image","trial_index":25,"time_elapsed":176493,"internal_node_id":"0.0-13.0","condition":"mass","subject_id":"SYN-MS-610214d0b27e356a6152e232-7uk","study_id":"6458864f2d32583f7f54d7b5","session_id":"645aca2f04b3a9857e15f373","user_lang":"en-US","phase":"test","category":"mcmf","label":"zorp","prompt":"Some of these are <b>zorp</b>. Please select the ones that are <b>zorp</b>.","selected_group":"img/stim_mcmf_b.png","selected_group_location":"right","selected_group_semantics":"ind"},{"rt":7601,"response":{"lchf":"img/stim_lchf_b.png"},"question_order":[0],"trial_type":"survey-multi-choice-image","trial_index":26,"time_elapsed":184104,"internal_node_id":"0.0-14.0","condition":"mass","subject_id":"SYN-MS-610214d0b27e356a6152e232-7uk","study_id":"6458864f2d32583f7f54d7b5","session_id":"645aca2f04b3a9857e15f373","user_lang":"en-US","phase":"test","category":"lchf","label":"toma","prompt":"Some of these are <b>toma</b>. Please select the ones that are <b>toma</b>.","selected_group":"img/stim_lchf_b.png","selected_group_location":"left","selected_group_semantics":"con"},{"view_history":[{"page_index":0,"viewing_time":1651}],"rt":1652,"trial_type":"instructions","trial_index":27,"time_elapsed":185765,"internal_node_id":"0.0-15.0","condition":"mass","subject_id":"SYN-MS-610214d0b27e356a6152e232-7uk","study_id":"6458864f2d32583f7f54d7b5","session_id":"645aca2f04b3a9857e15f373","user_lang":"en-US"},{"rt":27873,"response":{"demog_meta":"I thought about the word and chose the one that, in my mind, looked like the word. There was no real reason, just what I felt was right."},"demog_question":"demog_meta","trial_type":"survey-text","trial_index":28,"time_elapsed":213673,"internal_node_id":"0.0-16.0","condition":"mass","subject_id":"SYN-MS-610214d0b27e356a6152e232-7uk","study_id":"6458864f2d32583f7f54d7b5","session_id":"645aca2f04b3a9857e15f373","user_lang":"en-US"},{"rt":12144.199999988079,"response":{"demog_country_current":"United States of America (the)"},"question_order":[0],"demog_question":"demog_country_current","phase":"demog","trial_type":"survey-dropdown","trial_index":29,"time_elapsed":225837,"internal_node_id":"0.0-17.0","condition":"mass","subject_id":"SYN-MS-610214d0b27e356a6152e232-7uk","study_id":"6458864f2d32583f7f54d7b5","session_id":"645aca2f04b3a9857e15f373","user_lang":"en-US"},{"rt":2142,"response":{"demog_language_first":"Yes"},"question_order":[0],"demog_question":"demog_language_first","phase":"demog","trial_type":"survey-multi-choice","trial_index":30,"time_elapsed":227990,"internal_node_id":"0.0-18.0","condition":"mass","subject_id":"SYN-MS-610214d0b27e356a6152e232-7uk","study_id":"6458864f2d32583f7f54d7b5","session_id":"645aca2f04b3a9857e15f373","user_lang":"en-US"},{"rt":9478.199999988079,"response":{"demog_language_others":""},"question_order":[0],"phase":"demog","demog_question":"demog_language_others","trial_type":"survey-dropdown","trial_index":31,"time_elapsed":237484,"internal_node_id":"0.0-19.0-0.0","condition":"mass","subject_id":"SYN-MS-610214d0b27e356a6152e232-7uk","study_id":"6458864f2d32583f7f54d7b5","session_id":"645aca2f04b3a9857e15f373","user_lang":"en-US"},{"rt":4237.699999988079,"response":{"demog_age":"23","demog_gender":"Female"},"question_order":[0,1],"demog_question":"demog_age_gender","phase":"demog","trial_type":"survey-dropdown","trial_index":32,"time_elapsed":241742,"internal_node_id":"0.0-20.0","condition":"mass","subject_id":"SYN-MS-610214d0b27e356a6152e232-7uk","study_id":"6458864f2d32583f7f54d7b5","session_id":"645aca2f04b3a9857e15f373","user_lang":"en-US"},{"rt":2073,"response":{"demog_ethnic":["White"]},"question_order":[0],"demog_question":"demog_ethnic","phase":"demog","trial_type":"survey-multi-select","trial_index":33,"time_elapsed":243832,"internal_node_id":"0.0-21.0","condition":"mass","subject_id":"SYN-MS-610214d0b27e356a6152e232-7uk","study_id":"6458864f2d32583f7f54d7b5","session_id":"645aca2f04b3a9857e15f373","user_lang":"en-US"},{"rt":4008,"response":{"demog_objses":"One or more years of college, no degree"},"question_order":[0],"demog_question":"demog_objses","phase":"demog","trial_type":"survey-multi-choice","trial_index":34,"time_elapsed":247852,"internal_node_id":"0.0-22.0","condition":"mass","subject_id":"SYN-MS-610214d0b27e356a6152e232-7uk","study_id":"6458864f2d32583f7f54d7b5","session_id":"645aca2f04b3a9857e15f373","user_lang":"en-US"},{"rt":4258,"response":{"demog_final_feedback":""},"demog_question":"demog_final_feedback","phase":"demog","trial_type":"survey-text","trial_index":35,"time_elapsed":252132,"internal_node_id":"0.0-23.0","condition":"mass","subject_id":"SYN-MS-610214d0b27e356a6152e232-7uk","study_id":"6458864f2d32583f7f54d7b5","session_id":"645aca2f04b3a9857e15f373","user_lang":"en-US"}]}