{"trials":[{"success":true,"timeout":false,"failed_images":[],"failed_audio":[],"failed_video":[],"trial_type":"preload","trial_index":0,"time_elapsed":3581,"internal_node_id":"0.0-0.0","condition":"mass","subject_id":"SYN-MS-5dcf0f73af16d3067b87757f-kcd","study_id":"6458864f2d32583f7f54d7b5","session_id":"645acc876f93d475803c9a17","user_lang":"en-US"},{"view_history":[{"page_index":0,"viewing_time":34230}],"rt":34230,"trial_type":"instructions","trial_index":1,"time_elapsed":37812,"internal_node_id":"0.0-1.0","condition":"mass","subject_id":"SYN-MS-5dcf0f73af16d3067b87757f-kcd","study_id":"6458864f2d32583f7f54d7b5","session_id":"645acc876f93d475803c9a17","user_lang":"en-US"},{"rt":6613,"stimulus":"img/blicket.png","response":0,"trial_type":"image-button-response-prompt-pos","trial_index":2,"time_elapsed":44502,"internal_node_id":"0.0-2.0-0.0","condition":"mass","subject_id":"SYN-MS-5dcf0f73af16d3067b87757f-kcd","study_id":"6458864f2d32583f7f54d7b5","session_id":"645acc876f93d475803c9a17","user_lang":"en-US"},{"rt":9328,"stimulus":["img/blicket_on.mp4"],"response":0,"trial_type":"video-button-response","trial_index":3,"time_elapsed":53854,"internal_node_id":"0.0-2.0-1.0","condition":"mass","subject_id":"SYN-MS-5dcf0f73af16d3067b87757f-kcd","study_id":"6458864f2d32583f7f54d7b5","session_id":"645acc876f93d475803c9a17","user_lang":"en-US"},{"rt":6920,"stimulus":"img/blicket_on.png","response":0,"trial_type":"image-button-response-prompt-pos","trial_index":4,"time_elapsed":60861,"internal_node_id":"0.0-2.0-2.0","condition":"mass","subject_id":"SYN-MS-5dcf0f73af16d3067b87757f-kcd","study_id":"6458864f2d32583f7f54d7b5","session_id":"645acc876f93d475803c9a17","user_lang":"en-US"},{"rt":9543,"stimulus":"img/fam_ind_1.png","response":0,"trial_type":"image-button-response-prompt-pos","trial_index":5,"time_elapsed":70479,"internal_node_id":"0.0-3.0-0.0","condition":"mass","subject_id":"SYN-MS-5dcf0f73af16d3067b87757f-kcd","study_id":"6458864f2d32583f7f54d7b5","session_id":"645acc876f93d475803c9a17","user_lang":"en-US"},{"rt":10669,"stimulus":["img/fam_ind_1.mp4"],"response":0,"trial_type":"video-button-response","trial_index":6,"time_elapsed":81154,"internal_node_id":"0.0-3.0-1.0","condition":"mass","subject_id":"SYN-MS-5dcf0f73af16d3067b87757f-kcd","study_id":"6458864f2d32583f7f54d7b5","session_id":"645acc876f93d475803c9a17","user_lang":"en-US"},{"rt":17118,"stimulus":"img/fam_ind_2.png","response":0,"trial_type":"image-button-response-prompt-pos","trial_index":7,"time_elapsed":98349,"internal_node_id":"0.0-3.0-0.1","condition":"mass","subject_id":"SYN-MS-5dcf0f73af16d3067b87757f-kcd","study_id":"6458864f2d32583f7f54d7b5","session_id":"645acc876f93d475803c9a17","user_lang":"en-US"},{"rt":6227,"stimulus":["img/fam_ind_2.mp4"],"response":0,"trial_type":"video-button-response","trial_index":8,"time_elapsed":104581,"internal_node_id":"0.0-3.0-1.1","condition":"mass","subject_id":"SYN-MS-5dcf0f73af16d3067b87757f-kcd","study_id":"6458864f2d32583f7f54d7b5","session_id":"645acc876f93d475803c9a17","user_lang":"en-US"},{"rt":6210,"stimulus":"img/fam_ind_off.png","response":0,"trial_type":"image-button-response-prompt-pos","trial_index":9,"time_elapsed":110869,"internal_node_id":"0.0-3.0-0.2","condition":"mass","subject_id":"SYN-MS-5dcf0f73af16d3067b87757f-kcd","study_id":"6458864f2d32583f7f54d7b5","session_id":"645acc876f93d475803c9a17","user_lang":"en-US"},{"rt":6031,"stimulus":["img/fam_ind_off.mp4"],"response":0,"trial_type":"video-button-response","trial_index":10,"time_elapsed":116906,"internal_node_id":"0.0-3.0-1.2","condition":"mass","subject_id":"SYN-MS-5dcf0f73af16d3067b87757f-kcd","study_id":"6458864f2d32583f7f54d7b5","session_id":"645acc876f93d475803c9a17","user_lang":"en-US"},{"rt":7851,"stimulus":"img/fam_con.png","response":0,"trial_type":"image-button-response-prompt-pos","trial_index":11,"time_elapsed":124833,"internal_node_id":"0.0-3.0-0.3","condition":"mass","subject_id":"SYN-MS-5dcf0f73af16d3067b87757f-kcd","study_id":"6458864f2d32583f7f54d7b5","session_id":"645acc876f93d475803c9a17","user_lang":"en-US"},{"rt":10443,"stimulus":["img/fam_con.mp4"],"response":0,"trial_type":"video-button-response","trial_index":12,"time_elapsed":135281,"internal_node_id":"0.0-3.0-1.3","condition":"mass","subject_id":"SYN-MS-5dcf0f73af16d3067b87757f-kcd","study_id":"6458864f2d32583f7f54d7b5","session_id":"645acc876f93d475803c9a17","user_lang":"en-US"},{"rt":9101,"stimulus":"img/fam_con_off.png","response":0,"trial_type":"image-button-response-prompt-pos","trial_index":13,"time_elapsed":144457,"internal_node_id":"0.0-3.0-0.4","condition":"mass","subject_id":"SYN-MS-5dcf0f73af16d3067b87757f-kcd","study_id":"6458864f2d32583f7f54d7b5","session_id":"645acc876f93d475803c9a17","user_lang":"en-US"},{"rt":6558,"stimulus":["img/fam_con_off.mp4"],"response":0,"trial_type":"video-button-response","trial_index":14,"time_elapsed":151020,"internal_node_id":"0.0-3.0-1.4","condition":"mass","subject_id":"SYN-MS-5dcf0f73af16d3067b87757f-kcd","study_id":"6458864f2d32583f7f54d7b5","session_id":"645acc876f93d475803c9a17","user_lang":"en-US"},{"rt":28341,"stimulus":"img/fam_a.png","response":0,"trial_type":"image-button-response-prompt-pos","trial_index":15,"time_elapsed":179431,"internal_node_id":"0.0-4.0-0.0","condition":"mass","subject_id":"SYN-MS-5dcf0f73af16d3067b87757f-kcd","study_id":"6458864f2d32583f7f54d7b5","session_id":"645acc876f93d475803c9a17","user_lang":"en-US"},{"rt":10698,"stimulus":"In this part of the study, you will answer some questions \n                     about how objects interact with the detector.<br>\n                     Please use the information in the images provided to answer \n                     the questions. You will have two opportunities to get each \n                     set of questions correct.","response":0,"trial_type":"html-button-response","trial_index":16,"time_elapsed":190131,"internal_node_id":"0.0-4.0-1.0","condition":"mass","subject_id":"SYN-MS-5dcf0f73af16d3067b87757f-kcd","study_id":"6458864f2d32583f7f54d7b5","session_id":"645acc876f93d475803c9a17","user_lang":"en-US"},{"rt":14705,"response":{"Fam_AL":"No","Fam_AM":"Yes","Fam_AR":"Yes","Fam_A_All":"No"},"question_order":[2,3,0,1],"trial_type":"survey-multi-choice","trial_index":17,"time_elapsed":204839,"internal_node_id":"0.0-5.0-0.0","condition":"mass","subject_id":"SYN-MS-5dcf0f73af16d3067b87757f-kcd","study_id":"6458864f2d32583f7f54d7b5","session_id":"645acc876f93d475803c9a17","user_lang":"en-US"},{"rt":20368,"response":{"Fam_BL":"Yes","Fam_BM":"No","Fam_BR":"No","Fam_B_All":"Yes"},"question_order":[0,3,2,1],"trial_type":"survey-multi-choice","trial_index":18,"time_elapsed":225210,"internal_node_id":"0.0-6.0-0.0","condition":"mass","subject_id":"SYN-MS-5dcf0f73af16d3067b87757f-kcd","study_id":"6458864f2d32583f7f54d7b5","session_id":"645acc876f93d475803c9a17","user_lang":"en-US"},{"success":true,"trial_type":"fullscreen","trial_index":19,"time_elapsed":229579,"internal_node_id":"0.0-7.0","condition":"mass","subject_id":"SYN-MS-5dcf0f73af16d3067b87757f-kcd","study_id":"6458864f2d32583f7f54d7b5","session_id":"645acc876f93d475803c9a17","user_lang":"en-US"},{"rt":3739,"stimulus":"Thank you! Please do not exit fullscreen mode until the end of the study.","response":0,"trial_type":"html-button-response","trial_index":20,"time_elapsed":233320,"internal_node_id":"0.0-8.0","condition":"mass","subject_id":"SYN-MS-5dcf0f73af16d3067b87757f-kcd","study_id":"6458864f2d32583f7f54d7b5","session_id":"645acc876f93d475803c9a17","user_lang":"en-US"},{"rt":10604,"stimulus":"In this part of the study, you will see some words that might be unfamiliar.\n                 You will also see some groups of objects and how they interact with the detector.\n                 Use the information provided to guess which group of objects the word refers to.","response":0,"trial_type":"html-button-response","trial_index":21,"time_elapsed":243924,"internal_node_id":"0.0-9.0","condition":"mass","subject_id":"SYN-MS-5dcf0f73af16d3067b87757f-kcd","study_id":"6458864f2d32583f7f54d7b5","session_id":"645acc876f93d475803c9a17","user_lang":"en-US"},{"rt":36118,"response":{"lclf":"img/stim_lclf_a.png"},"question_order":[0],"trial_type":"survey-multi-choice-image","trial_index":22,"time_elapsed":280045,"internal_node_id":"0.0-10.0","condition":"mass","subject_id":"SYN-MS-5dcf0f73af16d3067b87757f-kcd","study_id":"6458864f2d32583f7f54d7b5","session_id":"645acc876f93d475803c9a17","user_lang":"en-US","phase":"test","category":"lclf","label":"sarel","prompt":"Some of these are <b>sarel</b>. Please select the ones that are <b>sarel</b>.","selected_group":"img/stim_lclf_a.png","selected_group_location":"left","selected_group_semantics":"ind"},{"rt":13887,"response":{"hclf":"img/stim_hclf_b.png"},"question_order":[0],"trial_type":"survey-multi-choice-image","trial_index":23,"time_elapsed":293937,"internal_node_id":"0.0-11.0","condition":"mass","subject_id":"SYN-MS-5dcf0f73af16d3067b87757f-kcd","study_id":"6458864f2d32583f7f54d7b5","session_id":"645acc876f93d475803c9a17","user_lang":"en-US","phase":"test","category":"hclf","label":"zorp","prompt":"Some of these are <b>zorp</b>. Please select the ones that are <b>zorp</b>.","selected_group":"img/stim_hclf_b.png","selected_group_location":"left","selected_group_semantics":"ind"},{"rt":13748,"response":{"mcmf":"img/stim_mcmf_b.png"},"question_order":[0],"trial_type":"survey-multi-choice-image","trial_index":24,"time_elapsed":307688,"internal_node_id":"0.0-12.0","condition":"mass","subject_id":"SYN-MS-5dcf0f73af16d3067b87757f-kcd","study_id":"6458864f2d32583f7f54d7b5","session_id":"645acc876f93d475803c9a17","user_lang":"en-US","phase":"test","category":"mcmf","label":"blicket","prompt":"Some of these are <b>blicket</b>. Please select the ones that are <b>blicket</b>.","selected_group":"img/stim_mcmf_b.png","selected_group_location":"left","selected_group_semantics":"con"},{"rt":10097,"response":{"hchf":"img/stim_hchf_b.png"},"question_order":[0],"trial_type":"survey-multi-choice-image","trial_index":25,"time_elapsed":317789,"internal_node_id":"0.0-13.0","condition":"mass","subject_id":"SYN-MS-5dcf0f73af16d3067b87757f-kcd","study_id":"6458864f2d32583f7f54d7b5","session_id":"645acc876f93d475803c9a17","user_lang":"en-US","phase":"test","category":"hchf","label":"toma","prompt":"Some of these are <b>toma</b>. Please select the ones that are <b>toma</b>.","selected_group":"img/stim_hchf_b.png","selected_group_location":"left","selected_group_semantics":"con"},{"rt":7362,"response":{"lchf":"img/stim_lchf_a.png"},"question_order":[0],"trial_type":"survey-multi-choice-image","trial_index":26,"time_elapsed":325154,"internal_node_id":"0.0-14.0","condition":"mass","subject_id":"SYN-MS-5dcf0f73af16d3067b87757f-kcd","study_id":"6458864f2d32583f7f54d7b5","session_id":"645acc876f93d475803c9a17","user_lang":"en-US","phase":"test","category":"lchf","label":"garn","prompt":"Some of these are <b>garn</b>. Please select the ones that are <b>garn</b>.","selected_group":"img/stim_lchf_a.png","selected_group_location":"right","selected_group_semantics":"con"},{"view_history":[{"page_index":0,"viewing_time":2419}],"rt":2419,"trial_type":"instructions","trial_index":27,"time_elapsed":327577,"internal_node_id":"0.0-15.0","condition":"mass","subject_id":"SYN-MS-5dcf0f73af16d3067b87757f-kcd","study_id":"6458864f2d32583f7f54d7b5","session_id":"645acc876f93d475803c9a17","user_lang":"en-US"},{"rt":117969,"response":{"demog_meta":"Intuitive guessing, just a feeling"},"demog_question":"demog_meta","trial_type":"survey-text","trial_index":28,"time_elapsed":445559,"internal_node_id":"0.0-16.0","condition":"mass","subject_id":"SYN-MS-5dcf0f73af16d3067b87757f-kcd","study_id":"6458864f2d32583f7f54d7b5","session_id":"645acc876f93d475803c9a17","user_lang":"en-US"},{"rt":12030,"response":{"demog_country_current":"United States of America (the)"},"question_order":[0],"demog_question":"demog_country_current","phase":"demog","trial_type":"survey-dropdown","trial_index":29,"time_elapsed":457595,"internal_node_id":"0.0-17.0","condition":"mass","subject_id":"SYN-MS-5dcf0f73af16d3067b87757f-kcd","study_id":"6458864f2d32583f7f54d7b5","session_id":"645acc876f93d475803c9a17","user_lang":"en-US"},{"rt":3495,"response":{"demog_language_first":"Yes"},"question_order":[0],"demog_question":"demog_language_first","phase":"demog","trial_type":"survey-multi-choice","trial_index":30,"time_elapsed":461093,"internal_node_id":"0.0-18.0","condition":"mass","subject_id":"SYN-MS-5dcf0f73af16d3067b87757f-kcd","study_id":"6458864f2d32583f7f54d7b5","session_id":"645acc876f93d475803c9a17","user_lang":"en-US"},{"rt":8688,"response":{"demog_language_others":""},"question_order":[0],"phase":"demog","demog_question":"demog_language_others","trial_type":"survey-dropdown","trial_index":31,"time_elapsed":469785,"internal_node_id":"0.0-19.0-0.0","condition":"mass","subject_id":"SYN-MS-5dcf0f73af16d3067b87757f-kcd","study_id":"6458864f2d32583f7f54d7b5","session_id":"645acc876f93d475803c9a17","user_lang":"en-US"},{"rt":7878,"response":{"demog_age":"46","demog_gender":"Female"},"question_order":[0,1],"demog_question":"demog_age_gender","phase":"demog","trial_type":"survey-dropdown","trial_index":32,"time_elapsed":477668,"internal_node_id":"0.0-20.0","condition":"mass","subject_id":"SYN-MS-5dcf0f73af16d3067b87757f-kcd","study_id":"6458864f2d32583f7f54d7b5","session_id":"645acc876f93d475803c9a17","user_lang":"en-US"},{"rt":6197,"response":{"demog_ethnic":["White"]},"question_order":[0],"demog_question":"demog_ethnic","phase":"demog","trial_type":"survey-multi-select","trial_index":33,"time_elapsed":483870,"internal_node_id":"0.0-21.0","condition":"mass","subject_id":"SYN-MS-5dcf0f73af16d3067b87757f-kcd","study_id":"6458864f2d32583f7f54d7b5","session_id":"645acc876f93d475803c9a17","user_lang":"en-US"},{"rt":3398,"response":{"demog_objses":"One or more years of college, no degree"},"question_order":[0],"demog_question":"demog_objses","phase":"demog","trial_type":"survey-multi-choice","trial_index":34,"time_elapsed":487270,"internal_node_id":"0.0-22.0","condition":"mass","subject_id":"SYN-MS-5dcf0f73af16d3067b87757f-kcd","study_id":"6458864f2d32583f7f54d7b5","session_id":"645acc876f93d475803c9a17","user_lang":"en-US"},{"rt":41459,"response":{"demog_final_feedback":"Entirety was confusing, I did my best.  The instructions were clear, I suppose."},"demog_question":"demog_final_feedback","phase":"demog","trial_type":"survey-text","trial_index":35,"time_elapsed":528739,"internal_node_id":"0.0-23.0","condition":"mass","subject_id":"SYN-MS-5dcf0f73af16d3067b87757f-kcd","study_id":"6458864f2d32583f7f54d7b5","session_id":"645acc876f93d475803c9a17","user_lang":"en-US"}]}