{"trials":[{"success":true,"timeout":false,"failed_images":[],"failed_audio":[],"failed_video":[],"trial_type":"preload","trial_index":0,"time_elapsed":8158,"internal_node_id":"0.0-0.0","condition":"mass","subject_id":"SYN-MS-614e21ac1bc2dc695aea2365-j80","study_id":"6458864f2d32583f7f54d7b5","session_id":"645accee3e718c922a1b4421","user_lang":"en-US"},{"view_history":[{"page_index":0,"viewing_time":16266}],"rt":16266,"trial_type":"instructions","trial_index":1,"time_elapsed":24424,"internal_node_id":"0.0-1.0","condition":"mass","subject_id":"SYN-MS-614e21ac1bc2dc695aea2365-j80","study_id":"6458864f2d32583f7f54d7b5","session_id":"645accee3e718c922a1b4421","user_lang":"en-US"},{"rt":7152,"stimulus":"img/blicket.png","response":0,"trial_type":"image-button-response-prompt-pos","trial_index":2,"time_elapsed":31581,"internal_node_id":"0.0-2.0-0.0","condition":"mass","subject_id":"SYN-MS-614e21ac1bc2dc695aea2365-j80","study_id":"6458864f2d32583f7f54d7b5","session_id":"645accee3e718c922a1b4421","user_lang":"en-US"},{"rt":4606,"stimulus":["img/blicket_on.mp4"],"response":0,"trial_type":"video-button-response","trial_index":3,"time_elapsed":36188,"internal_node_id":"0.0-2.0-1.0","condition":"mass","subject_id":"SYN-MS-614e21ac1bc2dc695aea2365-j80","study_id":"6458864f2d32583f7f54d7b5","session_id":"645accee3e718c922a1b4421","user_lang":"en-US"},{"rt":6195,"stimulus":"img/blicket_on.png","response":0,"trial_type":"image-button-response-prompt-pos","trial_index":4,"time_elapsed":42384,"internal_node_id":"0.0-2.0-2.0","condition":"mass","subject_id":"SYN-MS-614e21ac1bc2dc695aea2365-j80","study_id":"6458864f2d32583f7f54d7b5","session_id":"645accee3e718c922a1b4421","user_lang":"en-US"},{"rt":4911,"stimulus":"img/fam_ind_1.png","response":0,"trial_type":"image-button-response-prompt-pos","trial_index":5,"time_elapsed":47296,"internal_node_id":"0.0-3.0-0.0","condition":"mass","subject_id":"SYN-MS-614e21ac1bc2dc695aea2365-j80","study_id":"6458864f2d32583f7f54d7b5","session_id":"645accee3e718c922a1b4421","user_lang":"en-US"},{"rt":6819,"stimulus":["img/fam_ind_1.mp4"],"response":0,"trial_type":"video-button-response","trial_index":6,"time_elapsed":54116,"internal_node_id":"0.0-3.0-1.0","condition":"mass","subject_id":"SYN-MS-614e21ac1bc2dc695aea2365-j80","study_id":"6458864f2d32583f7f54d7b5","session_id":"645accee3e718c922a1b4421","user_lang":"en-US"},{"rt":3752,"stimulus":"img/fam_ind_2.png","response":0,"trial_type":"image-button-response-prompt-pos","trial_index":7,"time_elapsed":57869,"internal_node_id":"0.0-3.0-0.1","condition":"mass","subject_id":"SYN-MS-614e21ac1bc2dc695aea2365-j80","study_id":"6458864f2d32583f7f54d7b5","session_id":"645accee3e718c922a1b4421","user_lang":"en-US"},{"rt":5330,"stimulus":["img/fam_ind_2.mp4"],"response":0,"trial_type":"video-button-response","trial_index":8,"time_elapsed":63200,"internal_node_id":"0.0-3.0-1.1","condition":"mass","subject_id":"SYN-MS-614e21ac1bc2dc695aea2365-j80","study_id":"6458864f2d32583f7f54d7b5","session_id":"645accee3e718c922a1b4421","user_lang":"en-US"},{"rt":3067,"stimulus":"img/fam_ind_off.png","response":0,"trial_type":"image-button-response-prompt-pos","trial_index":9,"time_elapsed":66268,"internal_node_id":"0.0-3.0-0.2","condition":"mass","subject_id":"SYN-MS-614e21ac1bc2dc695aea2365-j80","study_id":"6458864f2d32583f7f54d7b5","session_id":"645accee3e718c922a1b4421","user_lang":"en-US"},{"rt":6147,"stimulus":["img/fam_ind_off.mp4"],"response":0,"trial_type":"video-button-response","trial_index":10,"time_elapsed":72416,"internal_node_id":"0.0-3.0-1.2","condition":"mass","subject_id":"SYN-MS-614e21ac1bc2dc695aea2365-j80","study_id":"6458864f2d32583f7f54d7b5","session_id":"645accee3e718c922a1b4421","user_lang":"en-US"},{"rt":4419,"stimulus":"img/fam_con.png","response":0,"trial_type":"image-button-response-prompt-pos","trial_index":11,"time_elapsed":76836,"internal_node_id":"0.0-3.0-0.3","condition":"mass","subject_id":"SYN-MS-614e21ac1bc2dc695aea2365-j80","study_id":"6458864f2d32583f7f54d7b5","session_id":"645accee3e718c922a1b4421","user_lang":"en-US"},{"rt":5247,"stimulus":["img/fam_con.mp4"],"response":0,"trial_type":"video-button-response","trial_index":12,"time_elapsed":82085,"internal_node_id":"0.0-3.0-1.3","condition":"mass","subject_id":"SYN-MS-614e21ac1bc2dc695aea2365-j80","study_id":"6458864f2d32583f7f54d7b5","session_id":"645accee3e718c922a1b4421","user_lang":"en-US"},{"rt":5195,"stimulus":"img/fam_con_off.png","response":0,"trial_type":"image-button-response-prompt-pos","trial_index":13,"time_elapsed":87280,"internal_node_id":"0.0-3.0-0.4","condition":"mass","subject_id":"SYN-MS-614e21ac1bc2dc695aea2365-j80","study_id":"6458864f2d32583f7f54d7b5","session_id":"645accee3e718c922a1b4421","user_lang":"en-US"},{"rt":7031,"stimulus":["img/fam_con_off.mp4"],"response":0,"trial_type":"video-button-response","trial_index":14,"time_elapsed":94313,"internal_node_id":"0.0-3.0-1.4","condition":"mass","subject_id":"SYN-MS-614e21ac1bc2dc695aea2365-j80","study_id":"6458864f2d32583f7f54d7b5","session_id":"645accee3e718c922a1b4421","user_lang":"en-US"},{"rt":14359,"stimulus":"img/fam_a.png","response":0,"trial_type":"image-button-response-prompt-pos","trial_index":15,"time_elapsed":108674,"internal_node_id":"0.0-4.0-0.0","condition":"mass","subject_id":"SYN-MS-614e21ac1bc2dc695aea2365-j80","study_id":"6458864f2d32583f7f54d7b5","session_id":"645accee3e718c922a1b4421","user_lang":"en-US"},{"rt":9196,"stimulus":"In this part of the study, you will answer some questions \n                     about how objects interact with the detector.<br>\n                     Please use the information in the images provided to answer \n                     the questions. You will have two opportunities to get each \n                     set of questions correct.","response":0,"trial_type":"html-button-response","trial_index":16,"time_elapsed":117871,"internal_node_id":"0.0-4.0-1.0","condition":"mass","subject_id":"SYN-MS-614e21ac1bc2dc695aea2365-j80","study_id":"6458864f2d32583f7f54d7b5","session_id":"645accee3e718c922a1b4421","user_lang":"en-US"},{"rt":27870,"response":{"Fam_AL":"No","Fam_AM":"Yes","Fam_AR":"Yes","Fam_A_All":"Yes"},"question_order":[2,3,1,0],"trial_type":"survey-multi-choice","trial_index":17,"time_elapsed":145744,"internal_node_id":"0.0-5.0-0.0","condition":"mass","subject_id":"SYN-MS-614e21ac1bc2dc695aea2365-j80","study_id":"6458864f2d32583f7f54d7b5","session_id":"645accee3e718c922a1b4421","user_lang":"en-US"},{"rt":20951,"response":{"Fam_AL":"No","Fam_AM":"Yes","Fam_AR":"Yes","Fam_A_All":"No"},"question_order":[2,1,3,0],"trial_type":"survey-multi-choice","trial_index":18,"time_elapsed":172088,"internal_node_id":"0.0-5.1-0.1","condition":"mass","subject_id":"SYN-MS-614e21ac1bc2dc695aea2365-j80","study_id":"6458864f2d32583f7f54d7b5","session_id":"645accee3e718c922a1b4421","user_lang":"en-US"},{"rt":23194,"response":{"Fam_BL":"Yes","Fam_BM":"No","Fam_BR":"No","Fam_B_All":"Yes"},"question_order":[0,2,3,1],"trial_type":"survey-multi-choice","trial_index":19,"time_elapsed":195284,"internal_node_id":"0.0-6.0-0.0","condition":"mass","subject_id":"SYN-MS-614e21ac1bc2dc695aea2365-j80","study_id":"6458864f2d32583f7f54d7b5","session_id":"645accee3e718c922a1b4421","user_lang":"en-US"},{"success":true,"trial_type":"fullscreen","trial_index":20,"time_elapsed":200349,"internal_node_id":"0.0-7.0","condition":"mass","subject_id":"SYN-MS-614e21ac1bc2dc695aea2365-j80","study_id":"6458864f2d32583f7f54d7b5","session_id":"645accee3e718c922a1b4421","user_lang":"en-US"},{"rt":2534,"stimulus":"Thank you! Please do not exit fullscreen mode until the end of the study.","response":0,"trial_type":"html-button-response","trial_index":21,"time_elapsed":202884,"internal_node_id":"0.0-8.0","condition":"mass","subject_id":"SYN-MS-614e21ac1bc2dc695aea2365-j80","study_id":"6458864f2d32583f7f54d7b5","session_id":"645accee3e718c922a1b4421","user_lang":"en-US"},{"rt":10848,"stimulus":"In this part of the study, you will see some words that might be unfamiliar.\n                 You will also see some groups of objects and how they interact with the detector.\n                 Use the information provided to guess which group of objects the word refers to.","response":0,"trial_type":"html-button-response","trial_index":22,"time_elapsed":213732,"internal_node_id":"0.0-9.0","condition":"mass","subject_id":"SYN-MS-614e21ac1bc2dc695aea2365-j80","study_id":"6458864f2d32583f7f54d7b5","session_id":"645accee3e718c922a1b4421","user_lang":"en-US"},{"rt":42431,"response":{"lclf":"img/stim_lclf_b.png"},"question_order":[0],"trial_type":"survey-multi-choice-image","trial_index":23,"time_elapsed":256164,"internal_node_id":"0.0-10.0","condition":"mass","subject_id":"SYN-MS-614e21ac1bc2dc695aea2365-j80","study_id":"6458864f2d32583f7f54d7b5","session_id":"645accee3e718c922a1b4421","user_lang":"en-US","phase":"test","category":"lclf","label":"zorp","prompt":"Some of these are <b>zorp</b>. Please select the ones that are <b>zorp</b>.","selected_group":"img/stim_lclf_b.png","selected_group_location":"left","selected_group_semantics":"ind"},{"rt":18965,"response":{"hchf":"img/stim_hchf_b.png"},"question_order":[0],"trial_type":"survey-multi-choice-image","trial_index":24,"time_elapsed":275132,"internal_node_id":"0.0-11.0","condition":"mass","subject_id":"SYN-MS-614e21ac1bc2dc695aea2365-j80","study_id":"6458864f2d32583f7f54d7b5","session_id":"645accee3e718c922a1b4421","user_lang":"en-US","phase":"test","category":"hchf","label":"toma","prompt":"Some of these are <b>toma</b>. Please select the ones that are <b>toma</b>.","selected_group":"img/stim_hchf_b.png","selected_group_location":"left","selected_group_semantics":"con"},{"rt":13418,"response":{"hclf":"img/stim_hclf_a.png"},"question_order":[0],"trial_type":"survey-multi-choice-image","trial_index":25,"time_elapsed":288552,"internal_node_id":"0.0-12.0","condition":"mass","subject_id":"SYN-MS-614e21ac1bc2dc695aea2365-j80","study_id":"6458864f2d32583f7f54d7b5","session_id":"645accee3e718c922a1b4421","user_lang":"en-US","phase":"test","category":"hclf","label":"sarel","prompt":"Some of these are <b>sarel</b>. Please select the ones that are <b>sarel</b>.","selected_group":"img/stim_hclf_a.png","selected_group_location":"left","selected_group_semantics":"con"},{"rt":11902,"response":{"mcmf":"img/stim_mcmf_b.png"},"question_order":[0],"trial_type":"survey-multi-choice-image","trial_index":26,"time_elapsed":300456,"internal_node_id":"0.0-13.0","condition":"mass","subject_id":"SYN-MS-614e21ac1bc2dc695aea2365-j80","study_id":"6458864f2d32583f7f54d7b5","session_id":"645accee3e718c922a1b4421","user_lang":"en-US","phase":"test","category":"mcmf","label":"blicket","prompt":"Some of these are <b>blicket</b>. Please select the ones that are <b>blicket</b>.","selected_group":"img/stim_mcmf_b.png","selected_group_location":"right","selected_group_semantics":"con"},{"rt":7006,"response":{"lchf":"img/stim_lchf_b.png"},"question_order":[0],"trial_type":"survey-multi-choice-image","trial_index":27,"time_elapsed":307464,"internal_node_id":"0.0-14.0","condition":"mass","subject_id":"SYN-MS-614e21ac1bc2dc695aea2365-j80","study_id":"6458864f2d32583f7f54d7b5","session_id":"645accee3e718c922a1b4421","user_lang":"en-US","phase":"test","category":"lchf","label":"garn","prompt":"Some of these are <b>garn</b>. Please select the ones that are <b>garn</b>.","selected_group":"img/stim_lchf_b.png","selected_group_location":"left","selected_group_semantics":"con"},{"view_history":[{"page_index":0,"viewing_time":2746}],"rt":2746,"trial_type":"instructions","trial_index":28,"time_elapsed":310212,"internal_node_id":"0.0-15.0","condition":"mass","subject_id":"SYN-MS-614e21ac1bc2dc695aea2365-j80","study_id":"6458864f2d32583f7f54d7b5","session_id":"645accee3e718c922a1b4421","user_lang":"en-US"},{"rt":35965,"response":{"demog_meta":"look for isolations or groups"},"demog_question":"demog_meta","trial_type":"survey-text","trial_index":29,"time_elapsed":346181,"internal_node_id":"0.0-16.0","condition":"mass","subject_id":"SYN-MS-614e21ac1bc2dc695aea2365-j80","study_id":"6458864f2d32583f7f54d7b5","session_id":"645accee3e718c922a1b4421","user_lang":"en-US"},{"rt":9130.400000095367,"response":{"demog_country_current":"United States of America (the)"},"question_order":[0],"demog_question":"demog_country_current","phase":"demog","trial_type":"survey-dropdown","trial_index":30,"time_elapsed":355313,"internal_node_id":"0.0-17.0","condition":"mass","subject_id":"SYN-MS-614e21ac1bc2dc695aea2365-j80","study_id":"6458864f2d32583f7f54d7b5","session_id":"645accee3e718c922a1b4421","user_lang":"en-US"},{"rt":2826,"response":{"demog_language_first":"Yes"},"question_order":[0],"demog_question":"demog_language_first","phase":"demog","trial_type":"survey-multi-choice","trial_index":31,"time_elapsed":358141,"internal_node_id":"0.0-18.0","condition":"mass","subject_id":"SYN-MS-614e21ac1bc2dc695aea2365-j80","study_id":"6458864f2d32583f7f54d7b5","session_id":"645accee3e718c922a1b4421","user_lang":"en-US"},{"rt":16017.699999928474,"response":{"demog_language_others":""},"question_order":[0],"phase":"demog","demog_question":"demog_language_others","trial_type":"survey-dropdown","trial_index":32,"time_elapsed":374160,"internal_node_id":"0.0-19.0-0.0","condition":"mass","subject_id":"SYN-MS-614e21ac1bc2dc695aea2365-j80","study_id":"6458864f2d32583f7f54d7b5","session_id":"645accee3e718c922a1b4421","user_lang":"en-US"},{"rt":7737.299999952316,"response":{"demog_age":"68","demog_gender":"Male"},"question_order":[0,1],"demog_question":"demog_age_gender","phase":"demog","trial_type":"survey-dropdown","trial_index":33,"time_elapsed":381901,"internal_node_id":"0.0-20.0","condition":"mass","subject_id":"SYN-MS-614e21ac1bc2dc695aea2365-j80","study_id":"6458864f2d32583f7f54d7b5","session_id":"645accee3e718c922a1b4421","user_lang":"en-US"},{"rt":4073,"response":{"demog_ethnic":["White"]},"question_order":[0],"demog_question":"demog_ethnic","phase":"demog","trial_type":"survey-multi-select","trial_index":34,"time_elapsed":385977,"internal_node_id":"0.0-21.0","condition":"mass","subject_id":"SYN-MS-614e21ac1bc2dc695aea2365-j80","study_id":"6458864f2d32583f7f54d7b5","session_id":"645accee3e718c922a1b4421","user_lang":"en-US"},{"rt":3410,"response":{"demog_objses":"At least some graduate school"},"question_order":[0],"demog_question":"demog_objses","phase":"demog","trial_type":"survey-multi-choice","trial_index":35,"time_elapsed":389389,"internal_node_id":"0.0-22.0","condition":"mass","subject_id":"SYN-MS-614e21ac1bc2dc695aea2365-j80","study_id":"6458864f2d32583f7f54d7b5","session_id":"645accee3e718c922a1b4421","user_lang":"en-US"},{"rt":41129,"response":{"demog_final_feedback":"I was mostly guessing so have no idea what you could learn from this."},"demog_question":"demog_final_feedback","phase":"demog","trial_type":"survey-text","trial_index":36,"time_elapsed":430521,"internal_node_id":"0.0-23.0","condition":"mass","subject_id":"SYN-MS-614e21ac1bc2dc695aea2365-j80","study_id":"6458864f2d32583f7f54d7b5","session_id":"645accee3e718c922a1b4421","user_lang":"en-US"}]}